File: data/exp_raw/Mn Nodule/Standards/Os std.msa
#FORMAT      : EMSA/MAS Spectral Data File
#VERSION     : 1.0
#TITLE       : Os std
#DATE        : 30-APR-2021
#TIME        : 01:14
#OWNER       : Unknown
#NPOINTS     : 4096
#NCOLUMNS    : 1
#XUNITS      : eV
#YUNITS      : counts
#DATATYPE    : Y
#XPERCHAN    : 9.99864
#OFFSET      : 2.58389
#BEAMKV      : 20
#SIGNALTYPE  : EDS
#ELEVANGLE   : 35
#AZIMANGLE   : 0
#LIVETIME    : 1176.34
#REALTIME    : 1675.2
#PROBECUR    : 0.91248
#TAUWIND     : 0
#TDEADLYR    : 0
#TACTLYR     : 0.045
#TALWIND     : 0.003
#CHOFFSET    : 0.0
#XLABEL      : Energy (eV)
#YLABEL      : Counts
#EDSDET      : SDUTW
##SPECIMEN   : Os std
##D2STDCMP   : Os,(Os:100.0),15.0
##DET_HASH   : 97086dfe-e5c2-9c77-3984-1d0b14bbbf41
##CALIB_HASH : 2c5bd8a8-87f0-27c7-a5de-2beb7e661b9a
##WORKING    : 17.0 mm
##SAMPLE     : <BulkSample id="1">\n<mOrientation id="2">\n<double>0.0</double>\n<double>0.0</double>\n<double>-1.0</double>\n</mOrientation>\n</BulkSample>
#SPECTRUM    :
23,
23,
19,
17,
116,
1180,
4103,
12847,
33506,
39359,
21773,
13778,
14786,
16147,
17776,
19961,
22279,
24748,
23312,
21879,
23611,
25735,
28271,
30527,
33189,
35919,
38236,
40407,
42523,
45042,
47292,
49999,
51941,
54228,
56840,
59073,
60688,
62395,
64602,
66505,
68029,
69658,
71341,
72451,
73776,
75787,
78241,
89945,
130860,
196170,
203734,
148155,
102562,
85073,
79716,
79251,
81530,
89001,
107063,
141434,
199940,
360896,
857035,
1658618,
2019035,
1718882,
1265372,
734137,
290469,
96511,
54610,
59491,
74324,
75726,
60161,
43973,
36494,
35677,
35776,
37588,
38099,
39881,
43419,
46362,
45652,
41561,
38082,
36216,
34728,
34690,
34646,
34422,
34555,
34675,
34460,
34183,
34664,
34473,
35184,
35739,
36273,
35786,
35528,
35117,
34936,
35124,
35711,
35566,
35688,
35913,
35981,
36237,
36255,
36567,
36646,
36711,
36836,
36587,
36579,
37049,
36338,
36808,
36835,
37825,
37767,
38483,
39062,
40207,
40613,
40592,
39974,
39263,
38374,
37424,
37155,
36443,
36770,
36381,
36532,
36471,
36428,
36344,
36697,
35731,
36318,
35929,
36237,
36400,
36753,
37560,
38909,
38479,
37236,
36465,
35109,
35232,
34951,
35104,
35038,
34915,
34986,
34769,
34914,
34985,
34976,
34691,
34556,
34186,
33895,
33725,
33595,
33617,
33444,
33082,
33199,
32807,
32789,
32594,
32399,
32397,
32588,
32237,
31802,
32141,
31944,
31763,
31716,
31698,
31207,
31496,
31307,
31059,
30688,
30608,
30846,
30189,
30650,
30307,
30048,
29959,
30242,
29763,
29607,
29499,
29352,
29378,
29278,
29010,
28644,
28601,
28614,
28661,
28599,
28244,
28234,
28284,
27868,
27579,
27524,
27463,
27388,
27140,
26907,
27112,
26765,
26344,
26414,
26382,
26320,
26089,
26210,
25626,
25667,
25724,
25737,
25450,
25538,
25274,
25242,
25104,
24900,
24514,
24711,
24495,
24270,
24162,
23991,
24204,
24360,
24196,
24166,
23827,
23681,
23420,
23537,
23868,
24060,
25608,
27624,
31097,
32795,
33325,
31628,
28490,
26028,
23813,
22485,
22209,
22047,
21804,
21609,
21554,
21410,
21207,
21033,
21101,
21184,
21051,
21001,
20761,
20918,
20651,
20823,
20601,
20529,
20512,
20576,
20636,
20825,
22256,
25472,
32993,
50366,
81403,
127239,
181167,
222578,
234397,
207670,
156206,
101853,
60880,
36453,
25568,
20887,
19311,
18702,
18943,
18853,
19173,
19496,
19279,
19235,
18471,
18005,
17410,
17253,
16749,
16665,
16682,
16460,
16606,
16427,
16531,
16349,
16163,
16097,
16110,
15993,
15822,
16040,
15744,
15784,
16012,
16506,
17571,
19099,
20915,
23441,
26466,
31515,
39301,
51023,
65501,
78021,
82729,
77876,
66282,
54681,
47837,
48163,
52211,
56450,
56504,
51472,
42447,
32706,
24576,
19795,
17193,
15966,
15709,
15465,
14691,
14194,
13289,
12728,
12322,
11856,
11464,
11321,
11181,
11103,
11105,
10978,
10956,
11058,
10810,
10704,
10826,
10496,
10548,
10622,
10559,
10543,
10182,
10355,
10251,
10300,
10456,
10343,
10406,
10431,
10138,
10090,
10377,
9993,
10606,
11591,
13403,
15206,
18100,
19591,
20197,
19154,
16900,
14555,
12504,
11001,
10516,
10633,
10654,
10952,
11238,
11395,
11345,
11219,
10755,
10285,
9571,
9230,
8848,
8481,
8167,
8021,
8009,
7935,
7856,
7953,
7783,
8017,
7745,
7593,
7521,
7318,
7187,
7098,
7123,
6945,
6825,
6856,
6707,
6740,
6573,
6566,
6663,
6438,
6415,
6402,
6443,
6428,
6373,
6296,
6249,
6271,
6105,
6098,
5954,
6007,
6034,
5944,
5787,
5757,
5981,
5721,
5769,
5695,
5568,
5655,
5384,
5401,
5403,
5412,
5172,
5181,
5131,
5132,
5199,
5146,
4970,
4970,
4964,
4878,
4856,
4787,
4777,
4671,
4627,
4658,
4650,
4453,
4440,
4413,
4508,
4397,
4489,
4277,
4292,
4298,
3982,
4161,
3970,
4162,
4034,
3986,
3885,
3819,
3813,
3882,
3693,
3713,
3805,
3690,
3673,
3521,
3631,
3498,
3477,
3420,
3483,
3421,
3494,
3370,
3357,
3333,
3299,
3216,
3159,
3246,
3056,
3088,
3059,
3007,
3048,
2924,
2919,
2890,
2750,
2865,
2696,
2653,
2775,
2606,
2662,
2631,
2558,
2460,
2571,
2499,
2350,
2463,
2377,
2273,
2307,
2294,
2215,
2271,
2243,
2251,
2053,
2142,
2080,
2036,
2057,
1921,
1999,
1992,
1961,
1903,
1943,
1905,
1750,
1859,
1814,
1673,
1733,
1712,
1676,
1694,
1590,
1613,
1649,
1569,
1536,
1534,
1494,
1457,
1466,
1386,
1420,
1369,
1370,
1350,
1287,
1339,
1347,
1315,
1300,
1220,
1137,
1158,
1115,
1078,
1075,
1019,
1096,
1030,
979,
920,
981,
1048,
971,
899,
938,
907,
892,
836,
812,
843,
781,
735,
731,
735,
744,
704,
695,
667,
646,
605,
587,
641,
604,
610,
564,
545,
531,
514,
479,
486,
476,
449,
478,
466,
417,
391,
400,
377,
387,
317,
340,
319,
291,
284,
293,
252,
263,
260,
202,
194,
170,
161,
153,
100,
113,
95,
83,
67,
41,
35,
37,
27,
31,
25,
27,
23,
21,
18,
18,
23,
24,
15,
18,
15,
24,
23,
22,
15,
13,
19,
23,
17,
22,
18,
18,
20,
20,
22,
15,
23,
29,
13,
10,
15,
18,
15,
11,
13,
15,
16,
14,
10,
11,
7,
13,
14,
15,
17,
17,
11,
5,
4,
13,
11,
15,
7,
14,
8,
10,
7,
14,
8,
17,
5,
7,
8,
15,
12,
9,
7,
7,
5,
22,
7,
5,
9,
12,
2,
7,
13,
6,
6,
4,
9,
7,
5,
8,
7,
9,
5,
3,
6,
8,
10,
5,
7,
8,
5,
4,
4,
7,
9,
5,
4,
7,
7,
7,
11,
8,
6,
5,
4,
3,
3,
4,
5,
8,
8,
4,
3,
6,
4,
6,
5,
4,
5,
2,
2,
3,
4,
2,
5,
3,
7,
8,
3,
6,
7,
3,
4,
3,
4,
3,
2,
5,
1,
4,
3,
2,
2,
3,
6,
1,
6,
2,
5,
1,
1,
1,
6,
4,
3,
2,
5,
2,
5,
3,
2,
2,
6,
5,
0,
1,
0,
0,
4,
1,
2,
1,
5,
1,
3,
3,
4,
1,
1,
0,
2,
2,
1,
3,
1,
0,
2,
0,
0,
3,
1,
0,
0,
2,
1,
4,
2,
2,
1,
3,
1,
1,
2,
0,
2,
0,
1,
0,
1,
3,
2,
1,
1,
1,
2,
1,
2,
0,
1,
2,
3,
0,
3,
1,
2,
2,
1,
1,
0,
1,
1,
0,
3,
1,
1,
2,
1,
1,
2,
1,
1,
2,
0,
1,
0,
2,
0,
1,
1,
1,
0,
0,
2,
1,
3,
1,
0,
2,
0,
0,
0,
1,
0,
0,
0,
0,
0,
0,
1,
1,
0,
2,
0,
0,
0,
1,
0,
0,
1,
2,
1,
1,
1,
0,
0,
2,
1,
0,
1,
0,
0,
0,
1,
1,
1,
1,
0,
0,
1,
0,
0,
0,
0,
1,
0,
0,
0,
1,
1,
0,
0,
1,
1,
0,
0,
0,
0,
0,
0,
0,
0,
0,
0,
1,
0,
0,
0,
0,
0,
0,
0,
0,
1,
0,
0,
0,
0,
0,
0,
0,
0,
0,
0,
0,
0,
1,
0,
0,
0,
0,
0,
0,
0,
0,
0,
0,
0,
0,
1,
0,
0,
1,
0,
0,
0,
1,
1,
0,
0,
0,
0,
0,
0,
0,
0,
0,
0,
0,
0,
0,
0,
0,
0,
0,
0,
0,
0,
0,
0,
0,
0,
1,
0,
0,
0,
0,
0,
0,
0,
0,
0,
0,
0,
0,
0,
0,
0,
0,
0,
0,
0,
0,
0,
0,
0,
0,
0,
0,
0,
0,
0,
0,
0,
0,
0,
0,
0,
1,
0,
1,
0,
0,
0,
0,
0,
0,
0,
0,
0,
0,
0,
0,
1,
0,
0,
0,
0,
0,
0,
0,
0,
0,
0,
0,
0,
0,
0,
0,
0,
0,
0,
0,
0,
0,
0,
0,
0,
0,
0,
0,
0,
0,
0,
0,
0,
0,
0,
0,
0,
0,
0,
0,
0,
0,
0,
0,
0,
1,
0,
0,
0,
0,
0,
0,
0,
0,
0,
0,
0,
0,
0,
0,
0,
0,
0,
0,
0,
0,
0,
0,
0,
0,
0,
0,
0,
0,
0,
0,
0,
0,
0,
0,
0,
0,
0,
0,
0,
0,
0,
0,
0,
0,
0,
0,
0,
0,
0,
0,
0,
0,
0,
0,
0,
0,
0,
0,
0,
0,
0,
0,
0,
0,
0,
0,
0,
0,
0,
0,
0,
0,
0,
0,
0,
0,
0,
0,
0,
0,
0,
0,
0,
0,
0,
0,
0,
0,
0,
0,
0,
0,
0,
0,
0,
0,
0,
0,
0,
0,
0,
0,
0,
0,
0,
0,
0,
0,
0,
0,
0,
0,
0,
0,
0,
0,
0,
0,
0,
0,
0,
0,
0,
0,
0,
0,
0,
0,
0,
0,
0,
0,
0,
0,
0,
0,
0,
0,
0,
0,
0,
0,
0,
0,
0,
0,
0,
0,
0,
0,
0,
0,
0,
0,
0,
0,
0,
0,
0,
0,
0,
0,
0,
0,
0,
0,
0,
0,
0,
0,
0,
0,
0,
0,
0,
0,
0,
0,
0,
0,
0,
0,
0,
0,
0,
0,
0,
0,
0,
0,
0,
0,
0,
0,
0,
0,
0,
0,
0,
0,
0,
0,
#ENDOFDATA   :