File: data/exp_raw/FeS_and_FeS2/FeS std.msa
#FORMAT      : EMSA/MAS Spectral Data File
#VERSION     : 1.0
#TITLE       : FeS std
#DATE        : 25-NOV-2020
#TIME        : 10:24
#OWNER       : Unknown
#NPOINTS     : 4096
#NCOLUMNS    : 1
#XUNITS      : eV
#YUNITS      : counts
#DATATYPE    : Y
#XPERCHAN    : 9.99864
#OFFSET      : 2.58389
#BEAMKV      : 20
#SIGNALTYPE  : EDS
#ELEVANGLE   : 35
#AZIMANGLE   : 0
#LIVETIME    : 707.401
#REALTIME    : 922.83
#PROBECUR    : 1.0293
#TAUWIND     : 0
#TDEADLYR    : 0
#TACTLYR     : 0.045
#TALWIND     : 0.003
#CHOFFSET    : 0.0
#XLABEL      : Energy (eV)
#YLABEL      : Counts
#EDSDET      : SDUTW
##SPECIMEN   : FeS std
##D2STDCMP   : FeS,(S:36.4748),(Fe:63.5252),5.0
##DET_HASH   : 97086dfe-e5c2-9c77-3984-1d0b14bbbf41
##CALIB_HASH : 74de4f47-d9d5-d258-4eaf-eeb143e27589
##WORKING    : 17.0 mm
##SAMPLE     : <BulkSample id="1">\n<mOrientation id="2">\n<double>0.0</double>\n<double>0.0</double>\n<double>-1.0</double>\n</mOrientation>\n</BulkSample>
#SPECTRUM    :
4,
9,
3,
8,
13,
90,
368,
2234,
11261,
20445,
11010,
4837,
4815,
5558,
6708,
9142,
13306,
20900,
36346,
57438,
76627,
75159,
99615,
180695,
156690,
58039,
19544,
12615,
10963,
11147,
14277,
17565,
15926,
13755,
13550,
13766,
13726,
14407,
14868,
15497,
16382,
16705,
17239,
18054,
18384,
19031,
19543,
19652,
20739,
21698,
21919,
21344,
20962,
20609,
20895,
21251,
22009,
22790,
23980,
24084,
23915,
23297,
22591,
22495,
22903,
23183,
23438,
24270,
24510,
24691,
25777,
28203,
35877,
56266,
130691,
381374,
845639,
1099487,
804154,
344846,
120547,
87181,
99265,
83342,
49043,
25766,
17752,
15595,
15381,
15352,
15445,
15496,
15298,
15323,
15548,
15470,
15754,
15753,
15910,
16267,
15981,
15879,
15466,
15265,
15319,
15230,
15212,
15043,
14777,
15027,
14929,
14807,
14775,
14850,
14593,
14374,
14457,
14430,
14218,
14291,
14236,
14051,
14126,
14037,
14365,
13796,
13721,
13484,
13537,
13371,
13542,
13302,
13151,
12997,
13071,
12909,
13280,
12813,
12751,
12676,
12366,
12333,
12438,
12477,
12429,
12146,
12122,
11976,
12092,
11715,
12289,
12107,
12903,
13805,
14486,
14536,
13790,
12646,
11867,
11527,
11274,
11308,
11072,
10755,
10798,
10577,
10557,
10347,
10452,
10583,
10367,
10481,
10076,
10181,
10015,
10115,
10178,
10101,
9980,
9749,
9583,
9744,
9626,
9472,
9415,
9460,
9266,
9254,
9150,
9008,
8975,
8972,
8838,
8804,
8711,
8793,
8777,
8783,
8714,
8692,
8641,
8851,
8781,
9009,
8952,
9349,
10097,
12249,
20742,
47779,
115076,
234537,
377271,
469101,
444991,
325841,
183191,
82632,
32596,
14571,
9175,
8030,
7723,
7466,
7565,
7324,
7477,
7824,
7985,
8596,
10691,
15526,
25730,
41292,
57615,
64977,
59891,
44548,
27772,
15733,
9050,
6618,
5670,
5362,
5217,
5044,
5225,
5158,
5208,
5154,
5147,
5079,
5039,
4945,
5074,
5032,
4941,
4920,
4945,
4856,
4788,
4863,
4782,
4785,
4826,
4941,
5222,
5280,
5271,
5303,
5047,
4747,
4603,
4643,
4531,
4569,
4439,
4372,
4394,
4392,
4382,
4329,
4394,
4307,
4378,
4402,
4519,
4746,
5064,
5360,
5696,
5574,
5277,
4677,
4583,
4423,
4298,
4165,
4157,
4024,
3902,
3921,
3841,
3746,
3840,
3866,
3741,
3705,
3773,
3774,
3751,
3821,
3773,
3819,
3845,
3643,
3663,
3469,
3475,
3487,
3388,
3445,
3425,
3316,
3351,
3267,
3285,
3260,
3235,
3260,
3204,
3200,
3246,
3195,
3103,
3124,
3186,
3100,
3166,
3058,
3064,
3006,
2969,
3080,
3015,
2878,
2938,
2923,
2910,
3012,
2862,
2953,
2943,
2875,
2907,
2786,
2766,
2745,
2696,
2517,
2475,
2557,
2658,
2599,
2542,
2533,
2530,
2407,
2587,
2542,
2441,
2514,
2489,
2490,
2379,
2344,
2263,
2296,
2315,
2208,
2299,
2302,
2295,
2195,
2198,
2183,
2198,
2221,
2144,
2089,
2138,
2150,
2163,
2019,
2049,
2069,
2075,
1989,
1874,
1947,
2018,
1934,
1963,
1917,
1929,
1904,
1832,
1873,
1865,
1780,
1861,
1834,
1736,
1849,
1683,
1641,
1827,
1770,
1715,
1755,
1839,
1779,
1729,
1771,
1788,
1864,
1812,
1759,
1798,
1721,
1688,
1611,
1554,
1458,
1459,
1381,
1471,
1414,
1375,
1368,
1357,
1323,
1352,
1338,
1360,
1375,
1326,
1319,
1262,
1285,
1341,
1270,
1252,
1220,
1189,
1178,
1171,
1141,
1064,
1148,
1097,
1152,
1122,
1113,
1070,
1081,
1043,
1052,
1118,
1038,
1060,
996,
1007,
1021,
1027,
982,
935,
921,
949,
931,
910,
893,
870,
917,
888,
885,
886,
903,
829,
878,
849,
790,
818,
837,
763,
785,
790,
764,
804,
770,
690,
767,
768,
715,
643,
679,
754,
646,
653,
616,
659,
699,
617,
649,
539,
627,
567,
587,
546,
568,
587,
561,
554,
521,
563,
542,
521,
558,
513,
536,
472,
518,
495,
489,
476,
467,
461,
485,
436,
420,
448,
408,
387,
443,
412,
389,
429,
426,
411,
381,
407,
405,
360,
354,
382,
359,
373,
336,
322,
310,
339,
324,
333,
288,
274,
303,
290,
254,
279,
283,
278,
281,
280,
276,
294,
256,
255,
238,
247,
273,
238,
246,
249,
201,
242,
208,
206,
191,
175,
178,
173,
182,
202,
187,
180,
171,
154,
190,
154,
137,
151,
153,
163,
170,
127,
133,
133,
137,
132,
111,
119,
101,
123,
126,
121,
108,
110,
102,
120,
107,
89,
100,
114,
100,
69,
97,
90,
87,
79,
67,
83,
75,
68,
67,
64,
63,
51,
58,
57,
51,
51,
53,
38,
52,
33,
51,
45,
34,
36,
29,
30,
33,
30,
28,
33,
23,
19,
25,
19,
22,
15,
18,
10,
19,
10,
4,
3,
6,
3,
3,
7,
3,
0,
2,
3,
4,
2,
1,
4,
4,
1,
1,
5,
1,
3,
1,
3,
4,
1,
3,
1,
2,
3,
3,
1,
3,
2,
1,
1,
3,
0,
0,
1,
1,
2,
0,
2,
1,
2,
0,
1,
1,
3,
0,
3,
1,
0,
1,
1,
1,
0,
0,
3,
2,
2,
2,
0,
1,
0,
1,
1,
3,
1,
2,
0,
0,
2,
1,
0,
1,
2,
2,
0,
2,
1,
0,
0,
0,
1,
0,
0,
0,
2,
0,
0,
0,
0,
1,
0,
1,
2,
0,
1,
0,
1,
2,
0,
1,
0,
1,
0,
0,
1,
0,
2,
0,
0,
0,
1,
0,
0,
1,
1,
0,
0,
1,
0,
1,
0,
1,
2,
0,
0,
0,
0,
1,
1,
1,
0,
0,
1,
0,
1,
1,
0,
1,
0,
1,
0,
0,
1,
0,
0,
0,
0,
0,
0,
0,
1,
0,
1,
0,
0,
0,
0,
0,
0,
1,
0,
0,
0,
1,
0,
0,
1,
0,
0,
0,
0,
0,
1,
0,
1,
0,
0,
0,
0,
1,
0,
1,
0,
0,
0,
0,
0,
0,
0,
0,
1,
0,
0,
0,
0,
0,
0,
1,
0,
0,
0,
0,
0,
0,
0,
0,
0,
0,
0,
0,
0,
0,
0,
0,
0,
0,
0,
0,
0,
0,
0,
0,
0,
0,
0,
0,
0,
0,
0,
0,
0,
0,
0,
0,
0,
0,
0,
0,
0,
0,
0,
0,
0,
0,
0,
0,
0,
0,
0,
0,
0,
0,
0,
0,
0,
0,
0,
0,
0,
0,
0,
0,
0,
0,
0,
0,
0,
0,
0,
1,
0,
0,
0,
0,
0,
0,
0,
0,
0,
0,
0,
0,
0,
0,
0,
0,
0,
0,
0,
0,
0,
0,
0,
0,
0,
0,
0,
0,
0,
0,
0,
1,
0,
0,
0,
0,
0,
0,
0,
0,
0,
0,
0,
0,
0,
0,
0,
0,
0,
0,
0,
0,
0,
0,
0,
0,
0,
0,
0,
0,
0,
0,
1,
0,
0,
0,
0,
0,
0,
0,
0,
0,
0,
0,
0,
0,
0,
0,
0,
0,
0,
0,
0,
0,
0,
0,
0,
0,
0,
0,
0,
0,
0,
0,
0,
0,
0,
0,
0,
0,
0,
0,
0,
0,
0,
0,
0,
0,
0,
0,
0,
0,
0,
0,
0,
0,
0,
0,
0,
0,
0,
0,
0,
0,
0,
0,
0,
0,
0,
0,
0,
0,
0,
0,
0,
0,
0,
0,
0,
0,
0,
0,
0,
0,
0,
0,
0,
0,
0,
0,
0,
0,
0,
0,
0,
0,
0,
0,
0,
0,
0,
0,
0,
0,
0,
0,
0,
0,
0,
0,
0,
0,
0,
0,
0,
0,
0,
0,
0,
0,
0,
0,
0,
0,
0,
0,
0,
0,
0,
0,
0,
0,
0,
0,
0,
0,
0,
0,
0,
0,
0,
0,
0,
0,
0,
0,
0,
0,
0,
0,
0,
0,
0,
0,
0,
0,
0,
0,
0,
0,
0,
0,
0,
0,
0,
0,
0,
0,
0,
0,
0,
0,
0,
0,
0,
0,
0,
0,
0,
0,
0,
0,
0,
0,
0,
0,
0,
0,
0,
0,
0,
0,
0,
0,
0,
0,
0,
0,
0,
0,
0,
0,
0,
0,
0,
0,
0,
0,
0,
0,
0,
0,
0,
0,
0,
0,
0,
0,
0,
0,
0,
0,
0,
0,
0,
0,
0,
0,
0,
0,
0,
0,
0,
0,
0,
0,
0,
0,
0,
0,
0,
0,
0,
0,
0,
0,
0,
0,
0,
0,
0,
0,
0,
0,
0,
0,
0,
0,
0,
0,
0,
0,
0,
0,
0,
0,
0,
0,
0,
0,
0,
0,
0,
0,
0,
0,
0,
0,
0,
0,
0,
0,
0,
0,
0,
0,
0,
0,
0,
0,
0,
0,
0,
0,
0,
0,
0,
0,
0,
0,
0,
0,
0,
0,
0,
0,
0,
0,
0,
0,
0,
0,
0,
0,
0,
0,
0,
0,
0,
0,
0,
0,
0,
0,
0,
0,
0,
0,
0,
0,
0,
0,
0,
0,
0,
0,
0,
0,
0,
0,
0,
0,
0,
0,
0,
0,
0,
0,
0,
0,
0,
0,
0,
0,
0,
0,
0,
0,
0,
0,
0,
0,
0,
0,
0,
0,
0,
0,
#ENDOFDATA   :