File: data/exp_raw/FeS_and_FeS2/FeS2 std.msa
#FORMAT      : EMSA/MAS Spectral Data File
#VERSION     : 1.0
#TITLE       : FeS2 std
#DATE        : 25-NOV-2020
#TIME        : 09:18
#OWNER       : Unknown
#NPOINTS     : 4096
#NCOLUMNS    : 1
#XUNITS      : eV
#YUNITS      : counts
#DATATYPE    : Y
#XPERCHAN    : 9.99864
#OFFSET      : 2.58389
#BEAMKV      : 20
#SIGNALTYPE  : EDS
#ELEVANGLE   : 35
#AZIMANGLE   : 0
#LIVETIME    : 705.753
#REALTIME    : 945.287
#PROBECUR    : 1.03663
#TAUWIND     : 0
#TDEADLYR    : 0
#TACTLYR     : 0.045
#TALWIND     : 0.003
#CHOFFSET    : 0.0
#XLABEL      : Energy (eV)
#YLABEL      : Counts
#EDSDET      : SDUTW
##SPECIMEN   : FeS2 std
##D2STDCMP   : FeS2,(S:53.4528),(Fe:46.5472),5.05
##DET_HASH   : 97086dfe-e5c2-9c77-3984-1d0b14bbbf41
##CALIB_HASH : 74de4f47-d9d5-d258-4eaf-eeb143e27589
##WORKING    : 17.0 mm
##SAMPLE     : <BulkSample id="1">\n<mOrientation id="2">\n<double>0.0</double>\n<double>0.0</double>\n<double>-1.0</double>\n</mOrientation>\n</BulkSample>
#SPECTRUM    :
2,
14,
5,
6,
37,
118,
402,
2083,
10594,
18789,
10064,
4433,
4078,
4804,
5819,
8199,
11490,
19522,
39589,
57806,
56845,
52811,
90213,
179659,
153472,
55388,
18596,
13054,
11547,
11680,
13284,
14953,
14632,
14692,
15274,
15750,
15689,
16228,
16776,
17172,
17745,
18738,
19047,
19471,
19850,
20473,
20923,
21677,
22378,
23393,
23867,
23041,
22465,
22245,
22277,
22604,
23321,
24611,
25828,
25592,
25455,
24721,
23747,
23776,
24340,
24635,
25467,
25950,
26577,
26710,
27813,
31938,
43872,
75078,
190889,
580378,
1291769,
1676160,
1221783,
515281,
171078,
118431,
134727,
111532,
61308,
27675,
15910,
13352,
12963,
13321,
13065,
13115,
13082,
13386,
13257,
13476,
13650,
13606,
13942,
14394,
14397,
14478,
13963,
13578,
13335,
13071,
13172,
13207,
13032,
13162,
12695,
13208,
12766,
12933,
12840,
12746,
12451,
12549,
12469,
12654,
12630,
12513,
12594,
12365,
12292,
12232,
12218,
12015,
12053,
12191,
11876,
12000,
11811,
11866,
11725,
11652,
11764,
11437,
11435,
11263,
11441,
11329,
11152,
11186,
11209,
11119,
10990,
10718,
10910,
10965,
11114,
11826,
12706,
14516,
15331,
15056,
13378,
11981,
10843,
10770,
10719,
10302,
9934,
9877,
9662,
9858,
9575,
9548,
9319,
9579,
9383,
9282,
9190,
9407,
9238,
9083,
9357,
9135,
8932,
8848,
8822,
9031,
8727,
8677,
8454,
8532,
8446,
8476,
8393,
8239,
8156,
8226,
7909,
8050,
8062,
7822,
7688,
7906,
7788,
7740,
7954,
7671,
7739,
7997,
8065,
8457,
8869,
10473,
16534,
36381,
84850,
170999,
274394,
337694,
318608,
231335,
130564,
58935,
24262,
11768,
7940,
6978,
6710,
6758,
6638,
6658,
6667,
6908,
7019,
7499,
8824,
12804,
19663,
31331,
42609,
48323,
44242,
33413,
21272,
12674,
7778,
5777,
5156,
4994,
4951,
4993,
4819,
4928,
5051,
4864,
4823,
4657,
4785,
4733,
4761,
4782,
4675,
4646,
4682,
4403,
4644,
4444,
4624,
4601,
4618,
4419,
4533,
4588,
4491,
4593,
4309,
4420,
4293,
4345,
4279,
4273,
4135,
4087,
4120,
4068,
4105,
4032,
4037,
4085,
4112,
4104,
4299,
4534,
4863,
5188,
5401,
5325,
4932,
4542,
4124,
4041,
3853,
3930,
3685,
3627,
3644,
3647,
3659,
3598,
3459,
3474,
3456,
3404,
3448,
3496,
3522,
3547,
3579,
3501,
3398,
3416,
3308,
3174,
3333,
3247,
3218,
3230,
3124,
3210,
3013,
3054,
3111,
3104,
3021,
3006,
3033,
2941,
2911,
2823,
2935,
2913,
2879,
2772,
2814,
2771,
2747,
2719,
2768,
2765,
2718,
2625,
2674,
2848,
2580,
2693,
2778,
2729,
2658,
2696,
2601,
2485,
2444,
2464,
2397,
2496,
2319,
2399,
2311,
2388,
2376,
2432,
2273,
2233,
2278,
2298,
2296,
2203,
2236,
2209,
2114,
2213,
2193,
2130,
2163,
2135,
2036,
2056,
2072,
1989,
1993,
2012,
2020,
2036,
1968,
1959,
1978,
1817,
1882,
1828,
1859,
1829,
1773,
1814,
1811,
1803,
1742,
1813,
1697,
1741,
1725,
1685,
1672,
1681,
1713,
1647,
1603,
1649,
1617,
1629,
1599,
1626,
1555,
1575,
1489,
1627,
1536,
1572,
1535,
1463,
1609,
1563,
1557,
1570,
1460,
1488,
1429,
1375,
1330,
1332,
1331,
1290,
1253,
1306,
1287,
1295,
1202,
1203,
1224,
1209,
1217,
1209,
1174,
1179,
1111,
1184,
1223,
1149,
1134,
1110,
1029,
1073,
1110,
1084,
1024,
1035,
1065,
1018,
986,
992,
998,
953,
952,
963,
928,
990,
981,
887,
909,
903,
839,
852,
878,
827,
860,
853,
838,
833,
793,
829,
726,
772,
824,
696,
720,
760,
747,
748,
723,
703,
691,
697,
698,
631,
692,
677,
681,
680,
651,
659,
619,
634,
690,
591,
544,
600,
569,
593,
581,
558,
557,
522,
554,
537,
526,
550,
518,
496,
519,
514,
514,
500,
468,
446,
448,
470,
384,
415,
450,
442,
396,
420,
404,
398,
416,
394,
413,
370,
377,
399,
377,
339,
381,
318,
385,
354,
378,
314,
342,
325,
340,
316,
306,
300,
308,
287,
294,
290,
332,
307,
258,
245,
279,
249,
278,
261,
247,
272,
247,
223,
233,
181,
222,
209,
195,
222,
203,
198,
209,
206,
215,
160,
170,
178,
160,
164,
143,
175,
190,
163,
151,
150,
145,
137,
129,
147,
127,
138,
128,
121,
157,
125,
115,
115,
110,
120,
115,
95,
116,
107,
106,
79,
103,
86,
90,
63,
84,
85,
76,
96,
64,
61,
67,
62,
62,
59,
57,
71,
62,
52,
71,
44,
33,
41,
46,
50,
48,
41,
36,
43,
36,
38,
33,
31,
26,
26,
31,
19,
20,
20,
25,
28,
15,
13,
16,
11,
11,
14,
12,
9,
6,
5,
4,
3,
7,
2,
5,
1,
2,
1,
2,
1,
0,
4,
2,
0,
2,
4,
1,
2,
1,
0,
1,
1,
2,
2,
1,
3,
1,
1,
1,
1,
0,
2,
3,
1,
2,
3,
0,
0,
4,
2,
0,
0,
2,
1,
2,
1,
1,
1,
2,
2,
1,
3,
0,
0,
1,
1,
1,
0,
1,
2,
0,
1,
1,
0,
0,
0,
0,
2,
0,
1,
0,
1,
0,
2,
1,
1,
0,
0,
0,
0,
1,
0,
0,
1,
0,
0,
1,
1,
0,
2,
0,
0,
1,
0,
3,
0,
0,
0,
0,
0,
0,
1,
0,
0,
0,
0,
0,
0,
0,
0,
0,
0,
0,
0,
0,
0,
0,
0,
1,
0,
0,
0,
0,
0,
0,
0,
3,
0,
0,
0,
0,
0,
2,
0,
0,
0,
1,
0,
3,
1,
0,
0,
0,
1,
0,
0,
1,
0,
1,
0,
1,
0,
0,
1,
0,
0,
0,
0,
0,
0,
0,
0,
1,
0,
0,
0,
0,
0,
0,
0,
0,
0,
0,
0,
0,
0,
0,
1,
0,
0,
1,
1,
0,
0,
0,
0,
0,
1,
0,
0,
0,
1,
0,
0,
0,
0,
0,
0,
0,
1,
0,
0,
1,
0,
0,
0,
0,
0,
0,
0,
0,
0,
0,
0,
1,
0,
0,
0,
0,
1,
0,
0,
0,
0,
0,
0,
0,
0,
0,
0,
0,
0,
0,
0,
0,
0,
0,
0,
0,
0,
0,
0,
0,
0,
0,
0,
0,
0,
0,
0,
0,
0,
0,
0,
0,
0,
0,
0,
0,
0,
0,
0,
0,
0,
0,
0,
0,
0,
0,
0,
0,
0,
0,
0,
0,
0,
0,
0,
0,
0,
0,
0,
0,
0,
0,
0,
0,
0,
0,
0,
0,
0,
0,
0,
0,
0,
0,
0,
0,
0,
1,
0,
0,
0,
0,
0,
0,
0,
0,
0,
0,
0,
0,
0,
0,
0,
0,
0,
0,
0,
0,
0,
0,
0,
0,
0,
0,
0,
0,
0,
0,
0,
0,
0,
0,
0,
0,
0,
0,
0,
0,
0,
0,
0,
0,
0,
0,
0,
0,
0,
0,
0,
0,
0,
0,
0,
0,
0,
0,
0,
0,
0,
0,
0,
0,
0,
0,
0,
0,
0,
0,
0,
0,
0,
0,
0,
0,
0,
0,
0,
0,
0,
0,
0,
0,
0,
0,
0,
0,
0,
0,
0,
0,
0,
0,
0,
0,
0,
0,
0,
0,
0,
0,
0,
0,
0,
0,
0,
0,
0,
0,
0,
0,
0,
0,
0,
0,
0,
0,
0,
0,
0,
0,
0,
0,
0,
0,
0,
0,
0,
0,
0,
0,
0,
0,
0,
0,
0,
0,
0,
0,
0,
0,
0,
0,
0,
0,
0,
0,
0,
0,
0,
0,
0,
0,
0,
0,
0,
0,
0,
0,
0,
0,
0,
0,
0,
0,
0,
0,
0,
0,
0,
0,
0,
0,
0,
0,
0,
0,
0,
1,
0,
0,
0,
0,
0,
0,
0,
0,
0,
0,
0,
0,
0,
0,
0,
0,
0,
0,
0,
0,
0,
0,
0,
0,
0,
0,
0,
0,
0,
0,
0,
0,
0,
0,
0,
0,
0,
0,
0,
0,
0,
0,
0,
0,
0,
0,
0,
0,
0,
0,
0,
0,
0,
0,
0,
0,
0,
0,
0,
0,
0,
0,
0,
0,
0,
0,
0,
0,
0,
0,
0,
0,
0,
0,
0,
0,
0,
0,
0,
0,
0,
0,
0,
0,
0,
0,
0,
0,
0,
0,
0,
0,
0,
0,
0,
0,
0,
0,
0,
0,
0,
0,
0,
0,
0,
0,
0,
0,
0,
0,
0,
0,
0,
0,
0,
0,
0,
0,
0,
0,
0,
0,
0,
0,
0,
0,
0,
0,
0,
0,
0,
0,
0,
0,
0,
0,
0,
0,
0,
0,
0,
0,
0,
0,
0,
0,
0,
0,
0,
0,
0,
0,
0,
0,
0,
0,
0,
0,
0,
0,
0,
0,
0,
0,
0,
0,
0,
0,
0,
0,
0,
0,
0,
0,
0,
0,
0,
0,
0,
0,
0,
0,
0,
0,
0,
0,
0,
0,
0,
0,
0,
0,
0,
0,
0,
0,
0,
0,
0,
0,
0,
0,
0,
0,
0,
0,
0,
0,
0,
0,
0,
0,
0,
0,
0,
0,
0,
0,
0,
#ENDOFDATA   :