File: data/exp_raw/Mn Nodule/MaxPixel[Region 1].msa
#FORMAT      : EMSA/MAS Spectral Data File
#VERSION     : 1.0
#TITLE       : MaxPixel[Region 1]
#DATE        : 31-DEC-1969
#TIME        : 07:00
#OWNER       : Unknown
#NPOINTS     : 2048
#NCOLUMNS    : 1
#XUNITS      : eV
#YUNITS      : counts
#DATATYPE    : Y
#XPERCHAN    : 9.99864
#OFFSET      : 2.58389
#SIGNALTYPE  : EDS
#ELEVANGLE   : 35
#AZIMANGLE   : 0
#TAUWIND     : 0
#TDEADLYR    : 0
#TACTLYR     : 0.045
#TALWIND     : 0.003
#CHOFFSET    : 0.0
#XLABEL      : Energy (eV)
#YLABEL      : Counts
#EDSDET      : SDUTW
##SPECIMEN   : MaxPixel[Region 1]
##DET_HASH   : 97086dfe-e5c2-9c77-3984-1d0b14bbbf41
##CALIB_HASH : 74de4f47-d9d5-d258-4eaf-eeb143e27589
#SPECTRUM    :
2,
2,
2,
1,
1,
1,
2,
3,
4,
5,
19,
61,
165,
285,
258,
137,
39,
16,
16,
19,
17,
18,
25,
51,
102,
179,
208,
158,
81,
35,
43,
38,
41,
67,
81,
99,
69,
44,
28,
46,
53,
101,
181,
159,
84,
160,
229,
222,
176,
165,
219,
246,
170,
123,
39,
20,
16,
14,
17,
23,
54,
116,
165,
164,
126,
76,
25,
16,
15,
18,
24,
45,
81,
150,
221,
174,
118,
67,
38,
24,
17,
19,
28,
60,
131,
272,
435,
482,
397,
265,
140,
68,
47,
28,
70,
96,
105,
115,
123,
144,
159,
134,
125,
87,
44,
26,
27,
22,
16,
16,
16,
17,
23,
42,
62,
84,
87,
65,
45,
23,
16,
16,
15,
20,
16,
16,
15,
15,
16,
29,
32,
41,
38,
25,
19,
15,
14,
15,
16,
14,
15,
15,
14,
14,
15,
14,
14,
19,
28,
31,
24,
24,
20,
14,
15,
14,
20,
15,
16,
17,
15,
20,
46,
76,
120,
166,
185,
160,
114,
65,
42,
14,
13,
13,
14,
14,
14,
19,
28,
25,
32,
54,
88,
126,
171,
167,
158,
101,
60,
35,
21,
13,
13,
13,
12,
13,
12,
17,
19,
24,
25,
31,
26,
19,
15,
14,
13,
14,
13,
12,
12,
11,
12,
13,
13,
12,
11,
12,
12,
19,
24,
42,
52,
71,
109,
143,
143,
112,
78,
53,
30,
15,
12,
11,
11,
10,
12,
14,
17,
21,
23,
28,
32,
27,
26,
19,
17,
21,
21,
16,
11,
11,
11,
11,
11,
11,
14,
16,
15,
13,
11,
12,
11,
11,
10,
11,
12,
11,
18,
22,
21,
32,
24,
17,
12,
10,
10,
11,
10,
12,
10,
10,
11,
11,
14,
11,
14,
16,
22,
28,
42,
63,
97,
115,
138,
134,
130,
105,
75,
51,
37,
26,
17,
12,
12,
10,
11,
10,
11,
11,
12,
10,
11,
14,
25,
39,
70,
90,
121,
155,
154,
142,
126,
97,
59,
45,
31,
24,
19,
15,
12,
11,
9,
8,
9,
8,
9,
8,
8,
9,
9,
8,
10,
9,
9,
9,
10,
10,
13,
15,
24,
23,
25,
23,
21,
21,
19,
12,
11,
9,
8,
9,
8,
8,
8,
8,
9,
13,
22,
26,
53,
64,
72,
82,
55,
60,
47,
42,
29,
17,
16,
9,
8,
8,
8,
8,
8,
8,
8,
8,
8,
8,
8,
8,
8,
10,
14,
11,
22,
32,
47,
49,
48,
47,
37,
31,
25,
18,
16,
9,
8,
9,
11,
16,
9,
8,
8,
7,
9,
8,
8,
8,
8,
7,
8,
14,
17,
22,
28,
47,
38,
53,
46,
37,
37,
28,
21,
14,
12,
7,
7,
7,
8,
7,
10,
10,
8,
8,
7,
7,
7,
6,
7,
8,
6,
7,
7,
6,
7,
7,
6,
7,
7,
7,
7,
7,
7,
8,
7,
6,
6,
7,
6,
6,
7,
6,
7,
7,
8,
8,
7,
7,
7,
7,
7,
7,
7,
6,
6,
8,
6,
6,
7,
7,
7,
6,
6,
6,
6,
6,
6,
7,
7,
6,
6,
6,
6,
6,
7,
7,
7,
6,
6,
6,
7,
7,
6,
7,
7,
7,
6,
6,
6,
7,
6,
7,
6,
6,
6,
6,
6,
6,
5,
6,
6,
7,
6,
6,
6,
6,
6,
6,
5,
6,
6,
7,
6,
6,
6,
6,
6,
5,
6,
6,
6,
6,
6,
5,
6,
7,
5,
5,
5,
6,
6,
6,
5,
6,
6,
6,
6,
5,
6,
5,
5,
5,
6,
5,
6,
6,
5,
6,
6,
6,
5,
5,
6,
6,
6,
6,
6,
5,
5,
5,
5,
6,
6,
5,
5,
5,
6,
6,
5,
5,
5,
5,
6,
5,
5,
6,
5,
5,
6,
5,
5,
5,
6,
5,
5,
6,
6,
5,
6,
5,
5,
5,
5,
6,
5,
6,
5,
5,
5,
5,
5,
5,
5,
6,
4,
5,
5,
5,
5,
5,
4,
5,
5,
4,
5,
5,
5,
5,
4,
4,
5,
5,
5,
4,
5,
4,
5,
5,
5,
5,
5,
5,
5,
4,
5,
5,
5,
5,
4,
5,
6,
5,
5,
4,
4,
4,
5,
4,
4,
5,
4,
5,
4,
5,
4,
5,
4,
4,
4,
5,
5,
4,
5,
4,
4,
4,
5,
4,
4,
5,
5,
4,
5,
4,
4,
5,
4,
4,
4,
4,
4,
4,
4,
5,
4,
4,
5,
4,
4,
4,
4,
4,
4,
4,
4,
4,
4,
4,
4,
4,
4,
4,
3,
4,
5,
4,
3,
4,
4,
4,
4,
4,
4,
4,
4,
4,
4,
4,
4,
4,
4,
4,
4,
4,
4,
4,
4,
4,
4,
4,
3,
4,
3,
3,
3,
3,
3,
3,
3,
3,
4,
4,
4,
3,
3,
4,
4,
4,
4,
3,
4,
4,
3,
4,
4,
4,
3,
4,
3,
3,
4,
3,
3,
4,
3,
3,
4,
3,
3,
4,
3,
3,
3,
4,
3,
3,
3,
3,
3,
3,
4,
4,
3,
3,
3,
3,
3,
4,
3,
3,
4,
3,
3,
3,
3,
3,
3,
3,
3,
4,
3,
3,
3,
4,
3,
3,
3,
3,
3,
3,
3,
3,
4,
3,
3,
3,
3,
3,
3,
3,
3,
3,
3,
3,
3,
3,
2,
3,
3,
4,
3,
3,
3,
3,
3,
3,
3,
3,
3,
3,
3,
3,
2,
2,
3,
3,
3,
3,
3,
3,
3,
2,
3,
3,
3,
3,
3,
2,
3,
3,
2,
2,
3,
3,
3,
2,
2,
2,
3,
3,
3,
2,
3,
2,
2,
2,
2,
3,
3,
2,
2,
3,
3,
3,
2,
2,
2,
2,
2,
2,
2,
2,
2,
2,
2,
3,
2,
2,
2,
2,
2,
2,
2,
2,
2,
2,
2,
2,
2,
2,
2,
2,
2,
2,
2,
2,
2,
2,
2,
2,
2,
2,
2,
2,
2,
2,
2,
2,
2,
2,
2,
2,
1,
2,
2,
2,
2,
1,
2,
2,
2,
1,
2,
2,
1,
1,
1,
2,
1,
1,
1,
1,
1,
2,
1,
1,
1,
1,
1,
1,
1,
1,
1,
1,
1,
1,
1,
1,
1,
1,
1,
1,
1,
1,
1,
1,
1,
1,
1,
1,
1,
1,
1,
1,
1,
1,
1,
1,
1,
1,
1,
#ENDOFDATA   :