File: data/exp_raw/K2496/Benitoite std.msa
#FORMAT      : EMSA/MAS Spectral Data File
#VERSION     : 1.0
#TITLE       : Bruker AXS spectrum Cu_10kV20nAMED_47kHz11DT_02082013_100s.msa
#DATE        : 08-FEB-2013
#TIME        : 09:01
#OWNER       : Bruker AXS
#NPOINTS     : 4096
#NCOLUMNS    : 1
#XUNITS      : eV
#YUNITS      : counts
#DATATYPE    : Y
#XPERCHAN    : 4.98077
#OFFSET      : -473.324
#BEAMKV      : 10
#SIGNALTYPE  : EDS
#ELEVANGLE   : 40
#AZIMANGLE   : 0
#LIVETIME    : 101.488
#REALTIME    : 109.477
#PROBECUR    : 20
#TDEADLYR    : 0.00001
#TACTLYR     : 0.045
#TALWIND     : 0.004
#CHOFFSET    : 0.0
#XLABEL      : Energy (eV)
#YLABEL      : Counts
#EDSDET      : SDDUTW
##D2STDCMP   : Benitoite,(O:34.83),(Si:20.38),(Ti:11.58),(Ba:33.21),5.0
##DET_HASH   : 29d35019-c5e1-311a-ffb2-bbc1a5950369
##CALIB_HASH : 043ba274-c987-fc55-1349-ceef0c075250
#SPECTRUM    :
0,
0,
0,
0,
0,
0,
0,
0,
0,
0,
0,
0,
0,
0,
0,
0,
0,
0,
0,
0,
0,
0,
0,
0,
1,
5,
106,
1753,
16836,
92213,
289800,
520403,
539647,
324261,
112810,
23073,
2750,
254,
25,
0,
0,
1410,
1583,
1899,
2548,
3684,
5951,
9421,
13695,
16472,
16276,
12216,
7647,
5124,
4804,
5895,
7561,
9105,
10834,
12665,
16494,
23622,
35632,
55249,
89286,
137373,
178299,
174834,
126704,
67277,
30060,
14961,
10436,
8402,
6735,
5767,
5271,
5185,
5526,
5819,
6741,
7789,
9414,
10994,
11594,
11272,
10084,
8500,
7229,
6643,
6561,
6579,
6452,
7003,
7724,
8279,
9093,
9298,
8998,
8776,
8792,
8772,
8577,
8173,
7654,
7346,
7227,
6906,
6930,
6915,
6839,
6763,
6839,
6757,
7060,
6963,
7026,
7158,
7130,
6957,
6967,
6983,
6905,
6998,
7038,
7156,
7230,
7169,
7078,
7232,
7339,
7469,
7536,
7330,
7195,
7195,
7288,
7340,
7377,
7303,
7822,
9078,
13118,
23440,
43622,
76214,
113845,
143755,
150986,
132225,
97526,
62129,
36413,
21989,
15190,
11584,
9536,
7782,
6606,
5777,
5481,
5274,
5124,
5142,
5053,
5089,
5111,
5113,
5068,
5032,
5063,
4991,
4969,
5081,
5104,
5112,
5153,
5074,
5171,
5110,
5050,
4919,
5043,
4938,
4911,
4796,
4680,
4556,
4456,
4470,
4460,
4424,
4312,
4261,
4352,
4256,
4303,
4269,
4215,
4200,
4248,
4159,
4129,
4037,
3974,
4167,
4069,
4087,
4031,
3966,
3869,
3903,
3904,
3838,
3875,
3946,
3753,
3860,
3726,
3626,
3718,
3740,
3782,
3648,
3566,
3700,
3540,
3438,
3528,
3494,
3404,
3438,
3501,
3414,
3385,
3360,
3368,
3281,
3383,
3233,
3231,
3305,
3244,
3153,
3263,
3213,
3204,
3133,
3162,
3170,
3204,
3044,
3121,
3186,
3148,
3035,
3064,
3072,
3020,
3094,
3019,
3054,
2965,
3021,
2881,
2894,
2958,
2764,
2802,
2745,
2768,
2735,
2815,
2719,
2726,
2634,
2698,
2754,
2649,
2631,
2562,
2632,
2635,
2478,
2558,
2380,
2473,
2455,
2477,
2500,
2538,
2618,
2813,
2838,
2827,
2987,
2893,
2842,
2784,
2634,
2548,
2477,
2300,
2381,
2270,
2234,
2177,
2229,
2204,
2093,
2169,
2176,
2249,
2218,
2243,
2277,
2253,
2300,
2393,
2487,
2693,
3010,
3593,
4784,
6509,
9235,
12936,
17056,
21259,
24909,
27395,
27610,
26227,
23454,
19226,
14833,
10920,
7735,
5292,
3783,
2884,
2342,
2145,
1950,
1951,
2167,
2322,
2699,
3303,
4050,
5129,
6208,
7174,
7817,
8181,
8177,
7712,
7239,
6505,
6078,
5425,
4912,
4491,
3824,
3377,
2947,
2509,
2258,
2083,
2149,
2186,
2544,
2887,
3274,
3452,
3703,
3648,
3589,
3252,
2853,
2460,
2120,
1809,
1618,
1539,
1407,
1390,
1375,
1368,
1368,
1361,
1366,
1384,
1382,
1443,
1513,
1614,
1721,
1829,
1933,
2075,
2072,
1969,
1879,
1687,
1593,
1441,
1366,
1269,
1226,
1239,
1247,
1272,
1263,
1237,
1295,
1346,
1351,
1416,
1408,
1363,
1309,
1282,
1238,
1173,
1121,
1158,
1155,
1117,
1048,
1076,
1061,
1035,
1054,
1064,
1016,
1037,
1040,
1026,
938,
1017,
959,
997,
985,
977,
940,
993,
1010,
909,
892,
936,
913,
923,
962,
910,
900,
853,
887,
896,
889,
872,
864,
875,
853,
829,
817,
881,
835,
834,
822,
814,
834,
783,
795,
827,
796,
750,
751,
753,
767,
741,
763,
748,
726,
776,
752,
743,
734,
705,
743,
718,
661,
697,
701,
686,
686,
702,
689,
666,
720,
642,
601,
610,
624,
600,
646,
640,
626,
613,
612,
583,
611,
641,
579,
575,
617,
608,
563,
563,
584,
575,
564,
571,
543,
580,
596,
532,
464,
509,
511,
551,
510,
524,
527,
561,
531,
499,
523,
480,
501,
544,
508,
475,
490,
515,
459,
461,
446,
438,
446,
435,
436,
449,
467,
421,
399,
417,
454,
386,
449,
411,
420,
415,
441,
394,
391,
376,
364,
371,
383,
341,
386,
376,
364,
330,
391,
402,
314,
358,
374,
382,
337,
306,
345,
358,
295,
336,
307,
303,
278,
299,
289,
312,
298,
330,
281,
321,
275,
284,
282,
270,
270,
259,
290,
295,
271,
268,
274,
289,
270,
250,
238,
233,
246,
239,
201,
236,
232,
223,
239,
233,
207,
204,
209,
241,
232,
207,
220,
196,
194,
211,
187,
171,
196,
203,
188,
144,
179,
140,
180,
145,
149,
159,
146,
157,
145,
130,
160,
159,
137,
123,
142,
122,
114,
100,
113,
125,
131,
153,
119,
128,
139,
96,
101,
95,
84,
91,
95,
107,
90,
83,
79,
85,
70,
71,
74,
77,
68,
68,
55,
59,
55,
52,
49,
37,
44,
36,
37,
42,
24,
41,
29,
19,
29,
23,
16,
19,
12,
20,
12,
12,
7,
9,
7,
7,
9,
7,
5,
5,
6,
4,
4,
2,
4,
5,
4,
3,
2,
5,
7,
5,
5,
6,
6,
4,
6,
5,
1,
3,
3,
4,
5,
2,
2,
2,
1,
1,
0,
3,
1,
4,
2,
4,
4,
4,
3,
4,
3,
1,
2,
5,
2,
3,
4,
3,
5,
6,
2,
2,
2,
5,
2,
2,
2,
3,
3,
3,
4,
1,
0,
4,
1,
2,
0,
1,
1,
4,
5,
4,
3,
2,
4,
0,
5,
4,
1,
1,
5,
3,
2,
1,
1,
1,
1,
1,
3,
3,
0,
3,
2,
2,
4,
2,
3,
2,
1,
1,
2,
1,
2,
0,
1,
2,
1,
4,
2,
2,
0,
2,
4,
0,
1,
1,
1,
0,
2,
2,
0,
3,
0,
1,
1,
0,
2,
0,
5,
1,
0,
0,
1,
1,
0,
0,
1,
1,
1,
1,
1,
3,
1,
1,
2,
0,
0,
1,
1,
1,
1,
1,
1,
1,
0,
2,
0,
0,
0,
3,
1,
2,
1,
1,
2,
0,
2,
1,
0,
0,
1,
2,
1,
0,
0,
1,
2,
0,
0,
1,
0,
1,
1,
0,
0,
0,
1,
0,
1,
1,
0,
1,
0,
2,
1,
0,
0,
1,
0,
0,
0,
0,
1,
0,
0,
1,
0,
0,
0,
0,
0,
1,
0,
0,
0,
0,
0,
0,
0,
1,
0,
1,
0,
0,
0,
1,
0,
0,
0,
1,
1,
0,
0,
1,
0,
1,
0,
0,
0,
0,
0,
0,
0,
0,
0,
0,
0,
1,
0,
0,
0,
0,
0,
0,
0,
1,
0,
0,
0,
0,
1,
1,
0,
0,
1,
1,
1,
0,
1,
0,
0,
0,
0,
0,
1,
0,
0,
0,
0,
0,
0,
1,
0,
1,
0,
0,
0,
0,
1,
1,
0,
0,
0,
2,
0,
0,
0,
0,
0,
0,
0,
0,
0,
0,
0,
0,
0,
0,
0,
0,
0,
0,
0,
1,
0,
0,
0,
0,
0,
0,
0,
0,
0,
0,
0,
0,
0,
0,
1,
0,
0,
0,
0,
0,
0,
0,
0,
0,
0,
0,
0,
0,
0,
0,
0,
0,
0,
0,
0,
0,
0,
0,
0,
0,
0,
0,
0,
0,
0,
0,
0,
0,
0,
0,
0,
0,
0,
0,
0,
0,
0,
0,
0,
0,
0,
0,
0,
0,
0,
0,
0,
0,
0,
0,
0,
0,
0,
0,
0,
0,
0,
0,
0,
0,
0,
0,
0,
0,
0,
0,
0,
0,
0,
0,
0,
0,
1,
1,
0,
0,
0,
0,
0,
0,
0,
0,
0,
0,
0,
0,
0,
0,
0,
0,
0,
0,
0,
0,
0,
0,
0,
0,
0,
0,
0,
0,
0,
0,
0,
0,
0,
0,
0,
1,
0,
0,
0,
0,
0,
0,
0,
0,
0,
0,
0,
0,
0,
0,
0,
0,
0,
0,
0,
0,
0,
0,
0,
0,
0,
0,
0,
0,
0,
0,
0,
0,
0,
0,
0,
0,
0,
0,
0,
0,
0,
0,
0,
0,
0,
0,
0,
0,
0,
0,
0,
0,
0,
0,
0,
0,
0,
0,
0,
0,
0,
0,
0,
0,
0,
0,
0,
0,
0,
0,
0,
0,
0,
0,
0,
0,
0,
0,
0,
0,
0,
0,
0,
0,
0,
0,
0,
0,
0,
0,
0,
0,
0,
0,
0,
0,
0,
0,
0,
0,
0,
0,
0,
0,
0,
0,
0,
0,
0,
0,
0,
0,
0,
0,
0,
0,
0,
0,
0,
0,
0,
0,
0,
0,
0,
0,
0,
0,
0,
0,
0,
0,
0,
0,
0,
0,
0,
0,
0,
0,
0,
0,
0,
0,
0,
0,
0,
0,
0,
0,
0,
0,
0,
0,
0,
0,
0,
0,
0,
0,
0,
0,
0,
0,
0,
0,
0,
0,
0,
0,
0,
0,
0,
0,
0,
0,
0,
0,
0,
0,
0,
0,
0,
0,
0,
0,
0,
0,
0,
0,
0,
0,
0,
0,
0,
0,
0,
0,
0,
0,
0,
0,
0,
0,
0,
0,
0,
0,
0,
0,
0,
0,
0,
0,
0,
#ENDOFDATA   :