File: data/exp_raw/K2496/C std.msa
#FORMAT      : EMSA/MAS Spectral Data File
#VERSION     : 1.0
#TITLE       : Bruker AXS spectrum Cu_10kV20nAMED123kHz11DT_50s.msa
#DATE        : 24-JAN-2013
#TIME        : 02:54
#OWNER       : Bruker AXS
#NPOINTS     : 4096
#NCOLUMNS    : 1
#XUNITS      : eV
#YUNITS      : counts
#DATATYPE    : Y
#XPERCHAN    : 4.98077
#OFFSET      : -473.324
#BEAMKV      : 10
#SIGNALTYPE  : EDS
#ELEVANGLE   : 40
#AZIMANGLE   : 0
#LIVETIME    : 50.751
#REALTIME    : 54.727
#PROBECUR    : 20
#TDEADLYR    : 0.00001
#TACTLYR     : 0.045
#TALWIND     : 0.004
#CHOFFSET    : 0.0
#XLABEL      : Energy (eV)
#YLABEL      : Counts
#EDSDET      : SDDUTW
##D2STDCMP   : C,(C:100.0),2.0
##DET_HASH   : 29d35019-c5e1-311a-ffb2-bbc1a5950369
##CALIB_HASH : 043ba274-c987-fc55-1349-ceef0c075250
#SPECTRUM    :
0,
0,
0,
0,
0,
0,
0,
0,
0,
0,
0,
0,
0,
0,
0,
0,
0,
0,
0,
0,
0,
0,
0,
0,
0,
3,
60,
943,
9135,
51380,
164326,
300475,
317153,
194126,
69771,
14893,
1985,
241,
35,
6,
0,
353,
762,
1910,
5969,
19894,
57105,
133290,
243728,
336879,
350232,
257761,
136316,
50260,
13572,
3706,
2194,
2392,
2480,
2561,
2634,
2853,
3188,
3452,
3941,
4273,
4203,
3651,
2629,
1835,
1163,
927,
904,
864,
890,
1000,
1014,
1088,
1098,
1205,
1204,
1204,
1295,
1312,
1425,
1425,
1477,
1492,
1488,
1554,
1600,
1533,
1511,
1589,
1634,
1607,
1631,
1670,
1675,
1759,
1702,
1664,
1670,
1716,
1624,
1641,
1563,
1671,
1626,
1609,
1599,
1581,
1640,
1596,
1623,
1551,
1527,
1630,
1583,
1507,
1510,
1529,
1511,
1491,
1529,
1474,
1443,
1404,
1394,
1419,
1392,
1410,
1397,
1321,
1352,
1295,
1275,
1285,
1215,
1181,
1237,
1161,
1185,
1226,
1287,
1328,
1473,
1530,
1476,
1454,
1391,
1280,
1199,
1146,
1074,
1034,
1052,
967,
1000,
970,
920,
942,
910,
906,
922,
894,
924,
923,
855,
853,
844,
858,
826,
809,
812,
779,
810,
815,
773,
783,
756,
761,
765,
744,
770,
769,
762,
752,
755,
716,
743,
721,
685,
664,
695,
661,
658,
705,
648,
665,
616,
609,
638,
666,
606,
663,
590,
672,
617,
594,
570,
594,
607,
563,
561,
515,
545,
557,
583,
541,
531,
541,
528,
548,
528,
535,
525,
487,
488,
504,
508,
515,
452,
486,
472,
466,
476,
475,
447,
432,
469,
474,
459,
441,
456,
438,
432,
481,
422,
443,
429,
418,
400,
415,
406,
389,
396,
378,
388,
363,
370,
395,
366,
411,
379,
383,
377,
343,
370,
350,
355,
358,
352,
382,
367,
358,
426,
367,
388,
375,
347,
333,
331,
308,
306,
326,
308,
290,
321,
277,
324,
293,
287,
304,
305,
291,
264,
272,
289,
267,
273,
268,
261,
299,
283,
260,
288,
281,
246,
249,
248,
252,
259,
252,
257,
228,
271,
240,
228,
243,
239,
233,
224,
228,
217,
223,
234,
221,
231,
235,
220,
217,
220,
218,
219,
219,
223,
233,
211,
207,
202,
206,
192,
198,
200,
203,
199,
194,
187,
212,
186,
190,
201,
173,
191,
160,
197,
196,
177,
184,
181,
176,
159,
182,
166,
161,
175,
153,
158,
159,
171,
159,
148,
153,
150,
146,
164,
161,
151,
145,
138,
157,
161,
152,
148,
142,
146,
134,
147,
155,
150,
134,
138,
126,
122,
134,
122,
138,
117,
130,
133,
130,
137,
122,
126,
130,
140,
115,
142,
117,
124,
124,
126,
132,
122,
113,
119,
138,
99,
114,
103,
135,
104,
124,
96,
106,
91,
103,
118,
96,
124,
98,
93,
107,
105,
111,
106,
84,
73,
98,
113,
102,
90,
90,
88,
83,
80,
75,
87,
87,
88,
73,
81,
80,
76,
83,
79,
87,
91,
74,
80,
74,
88,
80,
70,
70,
86,
61,
86,
75,
75,
69,
85,
75,
56,
79,
69,
75,
66,
55,
60,
74,
62,
83,
70,
64,
66,
47,
58,
65,
54,
67,
64,
58,
57,
65,
68,
59,
67,
67,
57,
56,
58,
55,
62,
47,
63,
72,
57,
67,
55,
62,
52,
58,
46,
45,
45,
46,
56,
57,
59,
55,
63,
61,
55,
41,
40,
50,
53,
41,
51,
43,
50,
42,
49,
41,
41,
37,
43,
47,
31,
37,
37,
39,
40,
29,
41,
33,
40,
27,
32,
51,
35,
36,
45,
41,
35,
39,
33,
38,
36,
38,
32,
35,
37,
36,
21,
32,
31,
30,
32,
30,
21,
21,
28,
30,
19,
22,
20,
30,
30,
32,
25,
33,
31,
18,
29,
22,
24,
24,
19,
22,
17,
23,
22,
18,
13,
24,
18,
11,
23,
24,
18,
16,
22,
14,
21,
24,
24,
16,
24,
15,
18,
24,
20,
18,
17,
25,
22,
7,
19,
20,
11,
21,
12,
18,
8,
16,
10,
14,
11,
14,
15,
14,
9,
11,
15,
16,
11,
11,
15,
12,
8,
16,
13,
5,
7,
7,
12,
17,
19,
10,
8,
4,
8,
4,
6,
10,
9,
15,
11,
6,
5,
5,
13,
7,
6,
16,
4,
7,
6,
2,
6,
6,
1,
6,
7,
2,
4,
3,
4,
2,
3,
4,
0,
3,
3,
3,
1,
5,
0,
2,
2,
2,
2,
0,
1,
3,
2,
2,
0,
1,
2,
0,
0,
0,
1,
0,
0,
0,
0,
0,
0,
0,
0,
0,
0,
0,
0,
0,
0,
0,
0,
0,
0,
0,
0,
0,
0,
0,
0,
0,
0,
0,
0,
0,
0,
0,
0,
0,
0,
0,
0,
0,
0,
0,
0,
0,
0,
0,
0,
0,
0,
0,
0,
0,
0,
0,
0,
0,
0,
0,
0,
0,
0,
0,
0,
0,
0,
0,
0,
0,
0,
1,
0,
0,
0,
0,
0,
0,
0,
0,
0,
1,
0,
0,
0,
0,
0,
1,
0,
0,
0,
0,
0,
0,
0,
0,
0,
0,
0,
0,
0,
0,
0,
0,
0,
0,
0,
0,
0,
0,
0,
1,
0,
0,
1,
0,
0,
0,
0,
0,
0,
0,
0,
0,
0,
0,
0,
0,
0,
0,
0,
0,
0,
0,
0,
0,
0,
0,
0,
0,
0,
0,
0,
0,
0,
0,
0,
0,
0,
0,
0,
0,
0,
0,
0,
0,
0,
0,
0,
0,
0,
0,
0,
0,
0,
0,
0,
0,
0,
1,
0,
0,
0,
0,
0,
0,
0,
0,
0,
0,
0,
0,
0,
0,
0,
0,
0,
0,
0,
0,
0,
0,
0,
0,
0,
0,
0,
0,
0,
0,
0,
0,
0,
0,
0,
0,
0,
0,
0,
0,
0,
0,
0,
0,
0,
0,
0,
0,
0,
0,
0,
0,
0,
0,
0,
0,
0,
0,
0,
0,
0,
0,
0,
0,
0,
0,
0,
0,
0,
0,
0,
0,
0,
0,
0,
0,
0,
0,
0,
0,
0,
0,
0,
0,
0,
0,
0,
0,
0,
0,
0,
0,
0,
0,
0,
0,
0,
0,
0,
0,
0,
0,
0,
0,
0,
0,
0,
0,
0,
0,
0,
0,
0,
0,
0,
0,
0,
0,
0,
0,
0,
0,
0,
0,
0,
0,
0,
0,
0,
0,
0,
0,
0,
0,
0,
0,
0,
0,
0,
0,
0,
0,
0,
0,
0,
0,
0,
0,
0,
0,
0,
0,
0,
0,
0,
0,
0,
0,
0,
0,
0,
0,
0,
0,
0,
0,
0,
0,
0,
0,
0,
0,
0,
0,
0,
0,
0,
0,
0,
0,
0,
0,
0,
0,
0,
0,
0,
0,
0,
0,
0,
0,
0,
0,
0,
0,
0,
0,
0,
0,
0,
0,
0,
0,
0,
0,
0,
0,
0,
0,
0,
0,
0,
0,
0,
0,
0,
0,
0,
0,
0,
0,
0,
0,
0,
0,
0,
0,
0,
0,
0,
0,
0,
0,
0,
0,
0,
0,
0,
0,
0,
0,
0,
0,
0,
0,
0,
0,
0,
0,
0,
0,
0,
0,
0,
0,
0,
0,
0,
0,
0,
0,
0,
0,
0,
0,
0,
0,
0,
0,
0,
0,
0,
0,
0,
0,
0,
0,
0,
0,
0,
0,
0,
0,
0,
0,
0,
0,
0,
0,
0,
0,
0,
0,
0,
0,
0,
0,
0,
0,
0,
0,
0,
0,
0,
0,
0,
0,
0,
0,
0,
0,
0,
0,
0,
0,
0,
0,
0,
0,
0,
0,
0,
0,
0,
0,
0,
0,
0,
0,
0,
0,
0,
0,
0,
0,
0,
0,
0,
0,
0,
0,
0,
0,
0,
0,
0,
0,
0,
0,
0,
0,
0,
0,
0,
0,
0,
0,
0,
0,
0,
0,
0,
0,
0,
0,
0,
0,
0,
0,
0,
0,
0,
0,
0,
0,
0,
0,
0,
0,
0,
0,
0,
0,
0,
0,
0,
0,
0,
0,
0,
0,
0,
0,
0,
0,
0,
0,
0,
0,
0,
0,
0,
0,
0,
0,
0,
0,
0,
0,
0,
0,
0,
0,
0,
0,
0,
0,
0,
0,
0,
0,
0,
0,
0,
0,
0,
0,
0,
0,
0,
0,
0,
0,
0,
0,
0,
0,
0,
0,
0,
0,
0,
0,
0,
0,
0,
0,
0,
0,
0,
0,
0,
0,
0,
0,
0,
0,
0,
0,
0,
0,
0,
0,
0,
0,
0,
0,
0,
0,
0,
0,
0,
0,
0,
0,
0,
0,
0,
0,
0,
0,
0,
0,
0,
0,
0,
0,
0,
0,
0,
0,
0,
0,
#ENDOFDATA   :